#  wavelength    Flux         Std.Dev.
#  [Angstroem]   [F(5500)]    [N/A]

  6150.019   699.4259    0.1
  6150.036   715.7540    0.1
  6150.053   727.6393    0.1
  6150.071   744.1971    0.1
  6150.088   754.4835    0.1
  6150.106   762.7716    0.1
  6150.123   769.6407    0.1
  6150.140   773.5988    0.1
  6150.158   777.5008    0.1
  6150.175   780.3395    0.1
  6150.192   783.5293    0.1
  6150.210   789.9658    0.1
  6150.227   789.6974    0.1
  6150.245   787.4978    0.1
  6150.262   786.1069    0.1
  6150.279   786.2506    0.1
  6150.297   786.2457    0.1
  6150.314   782.0504    0.1
  6150.332   783.6662    0.1
  6150.349   787.6625    0.1
  6150.366   784.2872    0.1
  6150.384   783.7955    0.1
  6150.401   786.2828    0.1
  6150.419   786.4086    0.1
  6150.436   785.3201    0.1
  6150.453   783.5540    0.1
  6150.471   782.2370    0.1
  6150.488   782.2817    0.1
  6150.506   784.2821    0.1
  6150.523   784.9067    0.1
  6150.540   784.2872    0.1
  6150.558   781.4247    0.1
  6150.575   781.2996    0.1
  6150.593   782.2501    0.1
  6150.610   782.4677    0.1
  6150.627   782.0434    0.1
  6150.645   781.5333    0.1
  6150.662   781.0338    0.1
  6150.680   779.6410    0.1
  6150.697   777.4247    0.1
  6150.714   775.8953    0.1
  6150.732   776.0581    0.1
  6150.749   777.4858    0.1
  6150.767   774.5652    0.1
  6150.784   772.3160    0.1
  6150.801   772.5317    0.1
  6150.819   773.0725    0.1
  6150.836   772.9120    0.1
  6150.854   770.6348    0.1
  6150.871   769.9002    0.1
  6150.888   770.1472    0.1
  6150.906   772.7700    0.1
  6150.923   772.1750    0.1
  6150.941   770.1999    0.1
  6150.958   771.9100    0.1
  6150.975   772.8827    0.1
  6150.993   772.8447    0.1
  6151.010   771.5310    0.1
  6151.028   768.6534    0.1
  6151.045   763.0847    0.1
  6151.062   755.8972    0.1
  6151.080   749.2360    0.1
  6151.097   737.8296    0.1
  6151.115   723.5735    0.1
  6151.132   710.0915    0.1
  6151.149   682.9371    0.1
  6151.167   658.7646    0.1
  6151.184   639.8908    0.1
  6151.202   605.6537    0.1
  6151.219   577.9134    0.1
  6151.236   554.0465    0.1
  6151.254   523.1846    0.1
  6151.271   502.0113    0.1
  6151.289   482.2601    0.1
  6151.306   466.8734    0.1
  6151.323   460.6606    0.1
  6151.341   458.0479    0.1
  6151.358   464.9040    0.1
  6151.376   474.6914    0.1
  6151.393   492.1174    0.1
  6151.410   517.5714    0.1
  6151.428   539.4397    0.1
  6151.445   569.4459    0.1
  6151.463   598.9028    0.1
  6151.480   622.3616    0.1
  6151.497   653.7353    0.1
  6151.515   676.5775    0.1
  6151.532   693.9316    0.1
  6151.550   718.8742    0.1
  6151.567   732.5569    0.1
  6151.584   741.7415    0.1
  6151.602   753.4471    0.1
  6151.619   762.1433    0.1
  6151.637   770.6960    0.1
  6151.654   772.2726    0.1
  6151.671   773.5173    0.1
  6151.689   777.9822    0.1
  6151.706   778.6733    0.1
  6151.724   778.6090    0.1
  6151.741   780.5236    0.1
  6151.758   782.7323    0.1
  6151.776   783.4940    0.1
  6151.793   781.3827    0.1
  6151.811   780.8547    0.1
  6151.828   780.8730    0.1
  6151.845   778.2896    0.1
  6151.863   775.7381    0.1
  6151.880   773.6410    0.1
  6151.898   769.7874    0.1
  6151.915   768.0726    0.1
  6151.932   767.4883    0.1
  6151.950   765.6743    0.1
  6151.967   764.5613    0.1
  6151.985   763.7918    0.1
  6152.002   760.8111    0.1
  6152.019   760.7051    0.1
  6152.037   764.4861    0.1
  6152.054   765.8942    0.1
  6152.072   766.5331    0.1
  6152.089   768.7489    0.1
  6152.106   771.3541    0.1
  6152.124   772.4806    0.1
  6152.141   770.7774    0.1
  6152.159   772.6054    0.1
  6152.176   775.2134    0.1
  6152.193   776.1931    0.1
  6152.211   774.3464    0.1
  6152.228   771.9971    0.1
  6152.246   773.0416    0.1
  6152.263   772.5459    0.1
  6152.280   770.7773    0.1
  6152.298   769.4480    0.1
  6152.315   768.9818    0.1
  6152.333   768.8310    0.1
  6152.350   767.9349    0.1
  6152.367   767.1154    0.1
  6152.385   766.4151    0.1
  6152.402   767.5036    0.1
  6152.420   766.7955    0.1
  6152.437   761.7686    0.1
  6152.454   761.2735    0.1
  6152.472   762.5570    0.1
  6152.489   764.2335    0.1
  6152.506   764.9844    0.1
  6152.524   765.0003    0.1
  6152.541   763.9884    0.1
  6152.559   764.1564    0.1
  6152.576   764.8697    0.1
  6152.593   766.5942    0.1
  6152.611   769.2889    0.1
  6152.628   772.4480    0.1
  6152.646   775.5478    0.1
  6152.663   776.3512    0.1
  6152.680   776.5699    0.1
  6152.698   783.8818    0.1
  6152.715   787.9270    0.1
  6152.733   788.7612    0.1
  6152.750   786.7481    0.1
  6152.767   786.2448    0.1
  6152.785   788.4489    0.1
  6152.802   789.5773    0.1
  6152.820   789.5534    0.1
  6152.837   788.7508    0.1
  6152.854   788.6110    0.1
  6152.872   788.3309    0.1
  6152.889   786.4620    0.1
  6152.907   785.2250    0.1
  6152.924   784.0785    0.1
  6152.941   779.5828    0.1
  6152.959   779.1725    0.1
  6152.976   780.5922    0.1
  6152.994   780.9908    0.1
  6153.011   779.4934    0.1
  6153.028   777.5735    0.1
  6153.046   778.4799    0.1
  6153.063   778.1880    0.1
  6153.081   776.9187    0.1
  6153.098   776.8279    0.1
  6153.115   777.5010    0.1
  6153.133   778.7359    0.1
  6153.150   779.5493    0.1
  6153.168   780.1342    0.1
  6153.185   781.0783    0.1
  6153.202   782.0423    0.1
  6153.220   783.4163    0.1
  6153.237   786.5188    0.1
  6153.255   786.2985    0.1
  6153.272   785.9819    0.1
  6153.289   788.5203    0.1
  6153.307   788.5558    0.1
  6153.324   787.5731    0.1
  6153.342   786.4303    0.1
  6153.359   787.4464    0.1
  6153.376   788.5133    0.1
  6153.394   785.5455    0.1
  6153.411   784.5252    0.1
  6153.429   784.8254    0.1
  6153.446   786.2793    0.1
  6153.463   786.8934    0.1
  6153.481   786.9111    0.1
  6153.498   783.8855    0.1
  6153.516   783.4829    0.1
  6153.533   784.8286    0.1
  6153.550   780.5681    0.1
  6153.568   777.0009    0.1
  6153.585   774.0286    0.1
  6153.603   769.2436    0.1
  6153.620   765.6441    0.1
  6153.637   761.8265    0.1
  6153.655   753.5013    0.1
  6153.672   747.2276    0.1
  6153.690   741.8847    0.1
  6153.707   730.5342    0.1
  6153.724   719.6491    0.1
  6153.742   705.2725    0.1
  6153.759   689.2528    0.1
  6153.777   675.4476    0.1
  6153.794   655.8552    0.1
  6153.811   638.3445    0.1
  6153.829   623.7188    0.1
  6153.846   597.3356    0.1
  6153.864   581.0877    0.1
  6153.881   570.7776    0.1
  6153.898   554.1905    0.1
  6153.916   546.2096    0.1
  6153.933   542.4366    0.1
  6153.951   542.6505    0.1
  6153.968   545.6874    0.1
  6153.985   550.6835    0.1
  6154.003   567.4236    0.1
  6154.020   582.1991    0.1
  6154.038   598.4206    0.1
  6154.055   621.1189    0.1
  6154.072   638.5532    0.1
  6154.090   658.2015    0.1
  6154.107   677.0973    0.1
  6154.125   690.0492    0.1
  6154.142   705.6497    0.1
  6154.159   720.2294    0.1
  6154.177   728.3989    0.1
  6154.194   733.6893    0.1
  6154.212   739.7791    0.1
  6154.229   745.0195    0.1
  6154.246   752.0678    0.1
  6154.264   756.3460    0.1
  6154.281   758.8791    0.1
  6154.299   762.5599    0.1
  6154.316   764.8549    0.1
  6154.333   766.1632    0.1
  6154.351   767.1977    0.1
  6154.368   769.8377    0.1
  6154.386   772.7651    0.1
  6154.403   774.5799    0.1
  6154.420   774.8733    0.1
  6154.438   774.7704    0.1
  6154.455   773.8381    0.1
  6154.473   774.8942    0.1
  6154.490   777.1249    0.1
  6154.507   776.4158    0.1
  6154.525   773.6930    0.1
  6154.542   769.7049    0.1
  6154.560   764.6576    0.1
  6154.577   761.0185    0.1
  6154.594   756.9502    0.1
  6154.612   744.7134    0.1
  6154.629   733.3688    0.1
  6154.647   720.3431    0.1
  6154.664   705.0567    0.1
  6154.681   689.9567    0.1
  6154.699   666.5634    0.1
  6154.716   642.3424    0.1
  6154.733   623.7267    0.1
  6154.751   598.1848    0.1
  6154.768   574.1232    0.1
  6154.786   556.9255    0.1
  6154.803   535.6599    0.1
  6154.820   520.5487    0.1
  6154.838   511.8000    0.1
  6154.855   504.6761    0.1
  6154.873   506.0749    0.1
  6154.890   511.1293    0.1
  6154.907   525.2733    0.1
  6154.925   538.6103    0.1
  6154.942   550.3140    0.1
  6154.960   575.6141    0.1
  6154.977   596.7019    0.1
  6154.994   614.4066    0.1
  6155.012   645.3997    0.1
  6155.029   664.3574    0.1
  6155.047   678.4375    0.1
  6155.064   700.7258    0.1
  6155.081   715.5624    0.1
  6155.099   728.1409    0.1
  6155.116   742.6641    0.1
  6155.134   750.7880    0.1
  6155.151   756.9858    0.1
  6155.168   761.7590    0.1
  6155.186   764.8383    0.1
  6155.203   768.2069    0.1
  6155.221   768.7066    0.1
  6155.238   767.7614    0.1
  6155.255   765.9472    0.1
  6155.273   761.2195    0.1
  6155.290   759.2697    0.1
  6155.308   760.3545    0.1
  6155.325   754.8667    0.1
  6155.342   749.5263    0.1
  6155.360   745.1433    0.1
  6155.377   743.4744    0.1
  6155.395   742.8959    0.1
  6155.412   742.0165    0.1
  6155.429   740.3326    0.1
  6155.447   740.0800    0.1
  6155.464   743.7073    0.1
  6155.482   743.3954    0.1
  6155.499   742.3964    0.1
  6155.516   744.3664    0.1
  6155.534   743.9693    0.1
  6155.551   742.5186    0.1
  6155.569   740.5483    0.1
  6155.586   737.5607    0.1
  6155.603   734.1013    0.1
  6155.621   725.3396    0.1
  6155.638   718.4888    0.1
  6155.656   713.1062    0.1
  6155.673   703.5753    0.1
  6155.690   700.5139    0.1
  6155.708   700.0902    0.1
  6155.725   695.1271    0.1
  6155.743   694.0733    0.1
  6155.760   695.1820    0.1
  6155.777   697.0076    0.1
  6155.795   702.0486    0.1
  6155.812   708.8818    0.1
  6155.830   711.5174    0.1
  6155.847   715.7888    0.1
  6155.864   722.6989    0.1
  6155.882   728.6531    0.1
  6155.899   730.6061    0.1
  6155.917   731.0983    0.1
  6155.934   732.8038    0.1
  6155.951   733.5641    0.1
  6155.969   733.5358    0.1
  6155.986   733.1285    0.1
  6156.004   732.4985    0.1
  6156.021   731.8215    0.1
  6156.038   734.1745    0.1
  6156.056   735.7553    0.1
  6156.073   736.2090    0.1
  6156.091   737.5445    0.1
  6156.108   738.8989    0.1
  6156.125   740.7188    0.1
  6156.143   745.2523    0.1
  6156.160   747.5721    0.1
  6156.178   746.8456    0.1
  6156.195   748.8748    0.1
  6156.212   750.4794    0.1
  6156.230   750.4859    0.1
  6156.247   752.3112    0.1
  6156.265   753.6330    0.1
  6156.282   753.4107    0.1
  6156.299   754.5276    0.1
  6156.317   755.5300    0.1
  6156.334   755.6038    0.1
  6156.352   755.2845    0.1
  6156.369   754.9673    0.1
  6156.386   754.6006    0.1
  6156.404   753.7992    0.1
  6156.421   753.5286    0.1
  6156.439   756.0419    0.1
  6156.456   757.5679    0.1
  6156.473   758.1249    0.1
  6156.491   758.2410    0.1
  6156.508   759.1328    0.1
  6156.526   760.0879    0.1
  6156.543   760.6799    0.1
  6156.560   763.7731    0.1
  6156.578   767.3872    0.1
  6156.595   770.7175    0.1
  6156.613   773.5095    0.1
  6156.630   775.7616    0.1
  6156.647   775.9074    0.1
  6156.665   777.1372    0.1
  6156.682   778.9312    0.1
  6156.700   778.9787    0.1
  6156.717   779.2377    0.1
  6156.734   779.8026    0.1
  6156.752   778.2943    0.1
  6156.769   776.5390    0.1
  6156.787   774.9673    0.1
  6156.804   772.2731    0.1
  6156.821   770.4192    0.1
  6156.839   768.9249    0.1
  6156.856   765.5911    0.1
  6156.874   763.2647    0.1
  6156.891   761.6342    0.1
  6156.908   760.3999    0.1
  6156.926   759.3051    0.1
  6156.943   757.7598    0.1
  6156.960   751.2232    0.1
  6156.978   748.5727    0.1
  6156.995   748.7252    0.1
  6157.013   747.1435    0.1
  6157.030   745.6727    0.1
  6157.047   744.2924    0.1
  6157.065   739.2585    0.1
  6157.082   735.4971    0.1
  6157.100   732.3406    0.1
  6157.117   727.3526    0.1
  6157.134   724.2296    0.1
  6157.152   721.7849    0.1
  6157.169   714.2450    0.1
  6157.187   707.1382    0.1
  6157.204   698.8992    0.1
  6157.221   687.1092    0.1
  6157.239   675.6624    0.1
  6157.256   660.0361    0.1
  6157.274   638.9401    0.1
  6157.291   621.8301    0.1
  6157.308   602.3502    0.1
  6157.326   572.3141    0.1
  6157.343   549.7395    0.1
  6157.361   528.9337    0.1
  6157.378   505.3418    0.1
  6157.395   488.4992    0.1
  6157.413   472.8897    0.1
  6157.430   463.7385    0.1
  6157.448   461.0335    0.1
  6157.465   462.3318    0.1
  6157.482   471.3309    0.1
  6157.500   482.4045    0.1
  6157.517   500.2714    0.1
  6157.535   525.8465    0.1
  6157.552   546.0266    0.1
  6157.569   568.5563    0.1
  6157.587   596.7325    0.1
  6157.604   618.6766    0.1
  6157.622   643.3670    0.1
  6157.639   668.7462    0.1
  6157.656   685.1307    0.1
  6157.674   699.0612    0.1
  6157.691   715.1612    0.1
  6157.709   726.4606    0.1
  6157.726   735.8085    0.1
  6157.743   745.2204    0.1
  6157.761   752.0783    0.1
  6157.778   758.7571    0.1
  6157.796   762.4126    0.1
  6157.813   764.7345    0.1
  6157.830   768.7986    0.1
  6157.848   771.3012    0.1
  6157.865   772.2186    0.1
  6157.883   772.4255    0.1
  6157.900   775.4865    0.1
  6157.917   778.0884    0.1
  6157.935   778.8921    0.1
  6157.952   779.8694    0.1
  6157.970   780.3585    0.1
  6157.987   779.5711    0.1
  6158.004   778.5818    0.1
  6158.022   777.9215    0.1
  6158.039   777.5323    0.1
  6158.057   776.9586    0.1
  6158.074   775.7757    0.1
  6158.091   772.4481    0.1
  6158.109   771.2290    0.1
  6158.126   770.3705    0.1
  6158.144   766.7432    0.1
  6158.161   765.9918    0.1
  6158.178   765.7781    0.1
  6158.196   762.6889    0.1
  6158.213   764.2773    0.1
  6158.231   765.8296    0.1
  6158.248   762.7893    0.1
  6158.265   763.3493    0.1
  6158.283   764.8032    0.1
  6158.300   764.7249    0.1
  6158.318   766.7954    0.1
  6158.335   768.4674    0.1
  6158.352   767.6744    0.1
  6158.370   770.3882    0.1
  6158.387   772.1360    0.1
  6158.405   767.7442    0.1
  6158.422   769.9467    0.1
  6158.439   773.4126    0.1
  6158.457   773.4171    0.1
  6158.474   773.8112    0.1
  6158.492   774.4088    0.1
  6158.509   774.5363    0.1
  6158.526   775.3713    0.1
  6158.544   775.7983    0.1
  6158.561   774.4227    0.1
  6158.579   773.6909    0.1
  6158.596   773.6631    0.1
  6158.613   774.3762    0.1
  6158.631   773.7869    0.1
  6158.648   772.4762    0.1
  6158.666   769.9136    0.1
  6158.683   768.9938    0.1
  6158.700   768.9168    0.1
  6158.718   768.6787    0.1
  6158.735   765.9603    0.1
  6158.753   764.2108    0.1
  6158.770   766.3587    0.1
  6158.787   765.8012    0.1
  6158.805   763.6902    0.1
  6158.822   759.7005    0.1
  6158.840   758.0845    0.1
  6158.857   756.6204    0.1
  6158.874   751.2487    0.1
  6158.892   746.3425    0.1
  6158.909   742.3927    0.1
  6158.927   735.8083    0.1
  6158.944   727.2494    0.1
  6158.961   719.5148    0.1
  6158.979   709.3741    0.1
  6158.996   700.5455    0.1
  6159.014   693.9839    0.1
  6159.031   686.2453    0.1
  6159.048   680.6918    0.1
  6159.066   677.2433    0.1
  6159.083   674.1122    0.1
  6159.101   676.1105    0.1
  6159.118   680.6776    0.1
  6159.135   689.2737    0.1
  6159.153   695.7322    0.1
  6159.170   701.6679    0.1
  6159.188   713.6774    0.1
  6159.205   726.2834    0.1
  6159.222   735.5546    0.1
  6159.240   746.6089    0.1
  6159.257   754.9676    0.1
  6159.274   760.3922    0.1
  6159.292   767.1679    0.1
  6159.309   774.1909    0.1
  6159.327   778.7225    0.1
  6159.344   782.5843    0.1
  6159.361   784.2347    0.1
  6159.379   784.9259    0.1
  6159.396   785.9126    0.1
  6159.414   787.0384    0.1
  6159.431   788.0063    0.1
  6159.448   789.3819    0.1
  6159.466   789.9582    0.1
  6159.483   790.0815    0.1
  6159.501   790.2255    0.1
  6159.518   789.5848    0.1
  6159.535   789.3375    0.1
  6159.553   789.7016    0.1
  6159.570   787.5537    0.1
  6159.588   786.0871    0.1
  6159.605   785.8689    0.1
  6159.622   786.0072    0.1
  6159.640   785.8599    0.1
  6159.657   785.3723    0.1
  6159.675   783.1279    0.1
  6159.692   782.5717    0.1
  6159.709   783.7452    0.1
  6159.727   782.3489    0.1
  6159.744   779.6416    0.1
  6159.762   775.8688    0.1
  6159.779   772.3686    0.1
  6159.796   770.8453    0.1
  6159.814   770.0338    0.1
  6159.831   766.6439    0.1
  6159.849   761.8790    0.1
  6159.866   756.0229    0.1
  6159.883   756.6791    0.1
  6159.901   756.5232    0.1
  6159.918   754.2398    0.1
  6159.936   749.1782    0.1
  6159.953   747.0452    0.1
  6159.970   746.8089    0.1
  6159.988   747.3899    0.1
  6160.005   749.6709    0.1
  6160.023   753.0170    0.1
  6160.040   753.2691    0.1
  6160.057   753.7199    0.1
  6160.075   754.9214    0.1
  6160.092   756.6876    0.1
  6160.110   756.9306    0.1
  6160.127   756.3736    0.1
  6160.144   753.0850    0.1
  6160.162   750.4259    0.1
  6160.179   748.1047    0.1
  6160.197   740.5847    0.1
  6160.214   733.0988    0.1
  6160.231   725.8733    0.1
  6160.249   709.7441    0.1
  6160.266   694.9757    0.1
  6160.284   681.1922    0.1
  6160.301   654.4199    0.1
  6160.318   632.2884    0.1
  6160.336   613.5129    0.1
  6160.353   581.1360    0.1
  6160.371   555.5336    0.1
  6160.388   536.4022    0.1
  6160.405   513.7871    0.1
  6160.423   498.7255    0.1
  6160.440   488.8863    0.1
  6160.458   480.6099    0.1
  6160.475   482.0061    0.1
  6160.492   487.7446    0.1
  6160.510   500.8140    0.1
  6160.527   518.9423    0.1
  6160.545   536.2597    0.1
  6160.562   560.3755    0.1
  6160.579   585.9028    0.1
  6160.597   607.2055    0.1
  6160.614   633.1733    0.1
  6160.632   653.9285    0.1
  6160.649   667.4721    0.1
  6160.666   681.8390    0.1
  6160.684   692.6108    0.1
  6160.701   697.9446    0.1
  6160.719   700.5118    0.1
  6160.736   697.1637    0.1
  6160.753   691.8545    0.1
  6160.771   683.6952    0.1
  6160.788   669.5876    0.1
  6160.806   655.8085    0.1
  6160.823   637.7358    0.1
  6160.840   614.4166    0.1
  6160.858   596.5854    0.1
  6160.875   577.6707    0.1
  6160.893   550.4551    0.1
  6160.910   531.0913    0.1
  6160.927   513.7529    0.1
  6160.945   493.6310    0.1
  6160.962   482.2669    0.1
  6160.980   475.3005    0.1
  6160.997   473.0177    0.1
  6161.014   475.7397    0.1
  6161.032   481.4130    0.1
  6161.049   498.3918    0.1
  6161.067   515.9891    0.1
  6161.084   533.7424    0.1
  6161.101   562.4984    0.1
  6161.119   586.6070    0.1
  6161.136   607.5985    0.1
  6161.154   637.3332    0.1
  6161.171   658.0871    0.1
  6161.188   674.7574    0.1
  6161.206   698.7526    0.1
  6161.223   713.3416    0.1
  6161.241   722.6949    0.1
  6161.258   731.9340    0.1
  6161.275   739.3013    0.1
  6161.293   744.7698    0.1
  6161.310   748.4393    0.1
  6161.328   751.5176    0.1
  6161.345   753.8060    0.1
  6161.362   754.8221    0.1
  6161.380   755.9455    0.1
  6161.397   756.1359    0.1
  6161.415   753.7807    0.1
  6161.432   754.4550    0.1
  6161.449   754.8146    0.1
  6161.467   751.8311    0.1
  6161.484   747.0934    0.1
  6161.501   742.9365    0.1
  6161.519   737.9501    0.1
  6161.536   727.6934    0.1
  6161.554   718.3689    0.1
  6161.571   707.6236    0.1
  6161.588   690.4780    0.1
  6161.606   674.5452    0.1
  6161.623   655.3034    0.1
  6161.641   625.7733    0.1
  6161.658   601.2280    0.1
  6161.675   575.4240    0.1
  6161.693   537.2986    0.1
  6161.710   505.6649    0.1
  6161.728   473.2735    0.1
  6161.745   429.1384    0.1
  6161.762   396.6162    0.1
  6161.780   367.2843    0.1
  6161.797   326.4355    0.1
  6161.815   299.1651    0.1
  6161.832   278.0660    0.1
  6161.849   254.6870    0.1
  6161.867   242.3539    0.1
  6161.884   235.4110    0.1
  6161.902   236.8979    0.1
  6161.919   245.1908    0.1
  6161.936   255.8216    0.1
  6161.954   279.2331    0.1
  6161.971   304.6449    0.1
  6161.989   327.2818    0.1
  6162.006   361.0938    0.1
  6162.023   397.4610    0.1
  6162.041   427.8552    0.1
  6162.058   466.2883    0.1
  6162.076   504.8485    0.1
  6162.093   534.3270    0.1
  6162.110   568.2807    0.1
  6162.128   600.4461    0.1
  6162.145   623.3670    0.1
  6162.163   647.5569    0.1
  6162.180   673.6717    0.1
  6162.197   690.6309    0.1
  6162.215   704.4391    0.1
  6162.232   717.6378    0.1
  6162.250   727.3838    0.1
  6162.267   737.7413    0.1
  6162.284   748.6328    0.1
  6162.302   752.9573    0.1
  6162.319   754.1933    0.1
  6162.337   761.6124    0.1
  6162.354   765.6108    0.1
  6162.371   766.8762    0.1
  6162.389   767.6610    0.1
  6162.406   768.0612    0.1
  6162.424   768.7235    0.1
  6162.441   774.0651    0.1
  6162.458   775.5425    0.1
  6162.476   775.0624    0.1
  6162.493   775.0181    0.1
  6162.511   774.2311    0.1
  6162.528   773.6303    0.1
  6162.545   775.1452    0.1
  6162.563   778.3429    0.1
  6162.580   780.4894    0.1
  6162.598   780.1107    0.1
  6162.615   778.9102    0.1
  6162.632   778.2751    0.1
  6162.650   778.6172    0.1
  6162.667   779.3434    0.1
  6162.685   779.7526    0.1
  6162.702   779.8792    0.1
  6162.719   778.9351    0.1
  6162.737   778.6850    0.1
  6162.754   779.3935    0.1
  6162.772   777.2591    0.1
  6162.789   774.6596    0.1
  6162.806   772.0564    0.1
  6162.824   768.4747    0.1
  6162.841   767.6577    0.1
  6162.859   768.1605    0.1
  6162.876   761.6020    0.1
  6162.893   755.3272    0.1
  6162.911   749.9107    0.1
  6162.928   739.8037    0.1
  6162.946   727.1801    0.1
  6162.963   714.0331    0.1
  6162.980   693.7021    0.1
  6162.998   673.8796    0.1
  6163.015   655.2542    0.1
  6163.033   626.5208    0.1
  6163.050   598.3450    0.1
  6163.067   573.8907    0.1
  6163.085   541.4559    0.1
  6163.102   510.8509    0.1
  6163.120   486.4058    0.1
  6163.137   457.9643    0.1
  6163.154   434.6555    0.1
  6163.172   419.1321    0.1
  6163.189   404.0630    0.1
  6163.207   391.5817    0.1
  6163.224   385.5179    0.1
  6163.241   382.1796    0.1
  6163.259   381.0022    0.1
  6163.276   382.7466    0.1
  6163.294   386.3157    0.1
  6163.311   390.7967    0.1
  6163.328   394.8840    0.1
  6163.346   398.9589    0.1
  6163.363   403.8211    0.1
  6163.381   408.6499    0.1
  6163.398   413.6688    0.1
  6163.415   421.5500    0.1
  6163.433   427.9072    0.1
  6163.450   434.5107    0.1
  6163.468   449.8965    0.1
  6163.485   466.6243    0.1
  6163.502   482.2057    0.1
  6163.520   505.3561    0.1
  6163.537   532.0595    0.1
  6163.555   555.1514    0.1
  6163.572   582.3958    0.1
  6163.589   612.5501    0.1
  6163.607   635.4907    0.1
  6163.624   659.2541    0.1
  6163.642   683.6592    0.1
  6163.659   701.7541    0.1
  6163.676   719.9115    0.1
  6163.694   739.6319    0.1
  6163.711   749.9757    0.1
  6163.729   756.4257    0.1
  6163.746   766.0015    0.1
  6163.763   770.1829    0.1
  6163.781   772.1986    0.1
  6163.798   780.7343    0.1
  6163.815   784.2301    0.1
  6163.833   785.0508    0.1
  6163.850   787.2830    0.1
  6163.868   788.5416    0.1
  6163.885   788.5735    0.1
  6163.902   786.6799    0.1
  6163.920   787.3055    0.1
  6163.937   787.8542    0.1
  6163.955   786.4524    0.1
  6163.972   786.8425    0.1
  6163.989   786.9610    0.1
  6164.007   785.5580    0.1
  6164.024   782.1472    0.1
  6164.042   779.9294    0.1
  6164.059   778.6297    0.1
  6164.076   775.9030    0.1
  6164.094   774.5604    0.1
  6164.111   774.3041    0.1
  6164.129   773.5659    0.1
  6164.146   772.3771    0.1
  6164.163   770.9952    0.1
  6164.181   768.9860    0.1
  6164.198   767.4246    0.1
  6164.216   766.3361    0.1
  6164.233   766.0549    0.1
  6164.250   764.6737    0.1
  6164.268   763.5991    0.1
  6164.285   764.3647    0.1
  6164.303   764.2335    0.1
  6164.320   763.7883    0.1
  6164.337   763.6607    0.1
  6164.355   763.6198    0.1
  6164.372   764.5489    0.1
  6164.390   767.0603    0.1
  6164.407   772.1574    0.1
  6164.424   772.6326    0.1
  6164.442   769.7020    0.1
  6164.459   771.5911    0.1
  6164.477   774.4447    0.1
  6164.494   776.6998    0.1
  6164.511   776.0238    0.1
  6164.529   779.0524    0.1
  6164.546   783.4363    0.1
  6164.564   784.8166    0.1
  6164.581   783.6606    0.1
  6164.598   782.4573    0.1
  6164.616   782.7801    0.1
  6164.633   783.7406    0.1
  6164.651   782.9292    0.1
  6164.668   778.4838    0.1
  6164.685   778.1124    0.1
  6164.703   778.6003    0.1
  6164.720   778.0546    0.1
  6164.738   778.0429    0.1
  6164.755   775.5162    0.1
  6164.772   770.4104    0.1
  6164.790   766.2865    0.1
  6164.807   760.5524    0.1
  6164.825   753.2131    0.1
  6164.842   742.4930    0.1
  6164.859   732.3396    0.1
  6164.877   722.1788    0.1
  6164.894   705.5047    0.1
  6164.912   686.4248    0.1
  6164.929   669.1560    0.1
  6164.946   649.8068    0.1
  6164.964   629.6082    0.1
  6164.981   611.4327    0.1
  6164.999   589.0801    0.1
  6165.016   569.4089    0.1
  6165.033   556.6511    0.1
  6165.051   545.2182    0.1
  6165.068   540.2902    0.1
  6165.086   541.5984    0.1
  6165.103   546.0818    0.1
  6165.120   560.3952    0.1
  6165.138   575.3106    0.1
  6165.155   589.9261    0.1
  6165.173   616.0154    0.1
  6165.190   637.2595    0.1
  6165.207   654.7915    0.1
  6165.225   677.4113    0.1
  6165.242   696.0317    0.1
  6165.260   710.8569    0.1
  6165.277   728.4176    0.1
  6165.294   740.8012    0.1
  6165.312   748.2170    0.1
  6165.329   755.0149    0.1
  6165.347   762.8054    0.1
  6165.364   767.7063    0.1
  6165.381   770.6332    0.1
  6165.399   768.6667    0.1
  6165.416   766.6210    0.1
  6165.434   765.4301    0.1
  6165.451   763.2446    0.1
  6165.468   761.2776    0.1
  6165.486   759.1814    0.1
  6165.503   753.3609    0.1
  6165.521   749.6097    0.1
  6165.538   747.2332    0.1
  6165.555   743.5136    0.1
  6165.573   740.7123    0.1
  6165.590   739.1910    0.1
  6165.608   738.4061    0.1
  6165.625   737.4643    0.1
  6165.642   738.0832    0.1
  6165.660   740.4774    0.1
  6165.677   740.7939    0.1
  6165.695   742.6280    0.1
  6165.712   746.4511    0.1
  6165.729   753.0406    0.1
  6165.747   755.1142    0.1
  6165.764   755.7384    0.1
  6165.782   763.5957    0.1
  6165.799   765.9788    0.1
  6165.816   765.6077    0.1
  6165.834   765.3327    0.1
  6165.851   763.1520    0.1
  6165.869   759.5998    0.1
  6165.886   752.8522    0.1
  6165.903   743.5981    0.1
  6165.921   733.4899    0.1
  6165.938   719.2179    0.1
  6165.956   698.1913    0.1
  6165.973   678.6881    0.1
  6165.990   658.6986    0.1
  6166.008   628.4011    0.1
  6166.025   603.8547    0.1
  6166.042   582.4572    0.1
  6166.060   550.6658    0.1
  6166.077   526.2331    0.1
  6166.095   508.3052    0.1
  6166.112   488.6669    0.1
  6166.129   477.2422    0.1
  6166.147   472.4071    0.1
  6166.164   471.2052    0.1
  6166.182   480.5322    0.1
  6166.199   493.4353    0.1
  6166.216   511.0105    0.1
  6166.234   537.1874    0.1
  6166.251   560.2154    0.1
  6166.269   583.2291    0.1
  6166.286   615.8863    0.1
  6166.303   640.3522    0.1
  6166.321   660.8705    0.1
  6166.338   686.1796    0.1
  6166.356   706.6206    0.1
  6166.373   720.7123    0.1
  6166.390   732.0592    0.1
  6166.408   744.0479    0.1
  6166.425   752.9113    0.1
  6166.443   760.4936    0.1
  6166.460   765.9921    0.1
  6166.477   770.1838    0.1
  6166.495   774.9210    0.1
  6166.512   777.7463    0.1
  6166.530   778.9326    0.1
  6166.547   779.9475    0.1
  6166.564   782.6815    0.1
  6166.582   784.9616    0.1
  6166.599   786.4955    0.1
  6166.617   786.7931    0.1
  6166.634   785.8508    0.1
  6166.651   785.7983    0.1
  6166.669   788.2497    0.1
  6166.686   788.7094    0.1
  6166.704   788.6035    0.1
  6166.721   789.0721    0.1
  6166.738   790.7978    0.1
  6166.756   791.1962    0.1
  6166.773   790.8849    0.1
  6166.791   793.4805    0.1
  6166.808   792.2056    0.1
  6166.825   789.7567    0.1
  6166.843   792.0298    0.1
  6166.860   791.5863    0.1
  6166.878   790.0911    0.1
  6166.895   789.6409    0.1
  6166.912   788.9375    0.1
  6166.930   788.7719    0.1
  6166.947   789.5401    0.1
  6166.965   787.4255    0.1
  6166.982   785.6377    0.1
  6166.999   784.7337    0.1
  6167.017   782.9550    0.1
  6167.034   781.6203    0.1
  6167.052   780.4560    0.1
  6167.069   777.4609    0.1
  6167.086   778.3586    0.1
  6167.104   779.2426    0.1
  6167.121   775.2226    0.1
  6167.139   773.2652    0.1
  6167.156   772.9727    0.1
  6167.173   773.1954    0.1
  6167.191   773.6197    0.1
  6167.208   774.1591    0.1
  6167.226   774.8877    0.1
  6167.243   773.0677    0.1
  6167.260   772.1532    0.1
  6167.278   771.9883    0.1
  6167.295   770.4229    0.1
  6167.313   770.2010    0.1
  6167.330   769.9882    0.1
  6167.347   767.2401    0.1
  6167.365   766.3938    0.1
  6167.382   765.8995    0.1
  6167.400   763.8808    0.1
  6167.417   759.2594    0.1
  6167.434   756.4788    0.1
  6167.452   755.3070    0.1
  6167.469   753.0458    0.1
  6167.487   750.9140    0.1
  6167.504   749.2440    0.1
  6167.521   750.4327    0.1
  6167.539   751.0001    0.1
  6167.556   750.9679    0.1
  6167.574   750.9206    0.1
  6167.591   750.1796    0.1
  6167.608   750.8744    0.1
  6167.626   754.7718    0.1
  6167.643   759.5253    0.1
  6167.661   760.7167    0.1
  6167.678   759.6648    0.1
  6167.695   764.9520    0.1
  6167.713   768.0097    0.1
  6167.730   768.9844    0.1
  6167.748   771.3113    0.1
  6167.765   772.0985    0.1
  6167.782   772.5389    0.1
  6167.800   774.6726    0.1
  6167.817   776.1535    0.1
  6167.835   776.8325    0.1
  6167.852   777.2998    0.1
  6167.869   778.3568    0.1
  6167.887   778.0417    0.1
  6167.904   776.6952    0.1
  6167.922   778.5443    0.1
  6167.939   779.3171    0.1
  6167.956   778.9153    0.1
  6167.974   777.9348    0.1
  6167.991   778.3213    0.1
  6168.009   779.0005    0.1
  6168.026   779.2184    0.1
  6168.043   777.2247    0.1
  6168.061   776.6865    0.1
  6168.078   778.7373    0.1
  6168.096   775.6387    0.1
  6168.113   774.1632    0.1
  6168.130   775.3000    0.1
  6168.148   779.9337    0.1
  6168.165   781.4071    0.1
  6168.183   781.1741    0.1
  6168.200   781.2744    0.1
  6168.217   782.7343    0.1
  6168.235   783.8807    0.1
  6168.252   784.1314    0.1
  6168.269   784.4382    0.1
  6168.287   785.1970    0.1
  6168.304   786.6164    0.1
  6168.322   787.7836    0.1
  6168.339   787.0752    0.1
  6168.356   785.4078    0.1
  6168.374   783.4316    0.1
  6168.391   780.0740    0.1
  6168.409   776.8306    0.1
  6168.426   774.9367    0.1
  6168.443   770.0710    0.1
  6168.461   762.8404    0.1
  6168.478   751.6913    0.1
  6168.496   739.7159    0.1
  6168.513   726.7492    0.1
  6168.530   710.8159    0.1
  6168.548   686.8650    0.1
  6168.565   667.6788    0.1
  6168.583   649.7844    0.1
  6168.600   616.7674    0.1
  6168.617   586.1590    0.1
  6168.635   560.5516    0.1
  6168.652   528.5734    0.1
  6168.670   497.3180    0.1
  6168.687   473.9500    0.1
  6168.704   451.1807    0.1
  6168.722   431.5991    0.1
  6168.739   423.1049    0.1
  6168.757   420.1441    0.1
  6168.774   424.5605    0.1
  6168.791   434.9937    0.1
  6168.809   447.9405    0.1
  6168.826   470.7196    0.1
  6168.844   498.8721    0.1
  6168.861   522.7128    0.1
  6168.878   548.4354    0.1
  6168.896   580.1713    0.1
  6168.913   603.7326    0.1
  6168.931   623.8366    0.1
  6168.948   644.1071    0.1
  6168.965   657.2192    0.1
  6168.983   666.5513    0.1
  6169.000   672.0751    0.1
  6169.018   670.9682    0.1
  6169.035   665.8946    0.1
  6169.052   655.0756    0.1
  6169.070   637.4766    0.1
  6169.087   619.7861    0.1
  6169.105   599.6057    0.1
  6169.122   570.8821    0.1
  6169.139   543.0917    0.1
  6169.157   515.9244    0.1
  6169.174   480.5884    0.1
  6169.192   452.5984    0.1
  6169.209   430.8753    0.1
  6169.226   406.4693    0.1
  6169.244   390.2758    0.1
  6169.261   382.7016    0.1
  6169.279   379.4815    0.1
  6169.296   388.9646    0.1
  6169.313   403.4987    0.1
  6169.331   419.6714    0.1
  6169.348   449.5238    0.1
  6169.366   480.0187    0.1
  6169.383   507.3377    0.1
  6169.400   541.4703    0.1
  6169.418   576.4689    0.1
  6169.435   604.0038    0.1
  6169.453   632.3695    0.1
  6169.470   659.9284    0.1
  6169.487   679.7375    0.1
  6169.505   697.0470    0.1
  6169.522   714.6688    0.1
  6169.540   723.8635    0.1
  6169.557   729.4561    0.1
  6169.574   735.0490    0.1
  6169.592   739.1600    0.1
  6169.609   741.4095    0.1
  6169.627   742.4336    0.1
  6169.644   743.0326    0.1
  6169.661   744.2881    0.1
  6169.679   745.9720    0.1
  6169.696   743.8401    0.1
  6169.714   742.7911    0.1
  6169.731   742.7905    0.1
  6169.748   742.9862    0.1
  6169.766   743.2332    0.1
  6169.783   743.2351    0.1
  6169.801   742.8056    0.1
  6169.818   740.5930    0.1
  6169.835   737.6588    0.1
  6169.853   734.2451    0.1
  6169.870   726.4527    0.1
  6169.888   719.6271    0.1
  6169.905   713.8327    0.1
  6169.922   705.7239    0.1
  6169.940   691.7621    0.1
  6169.957   678.4996    0.1
  6169.975   664.5352    0.1
